participant_id,block,block_type,trial,position,reaction_time,correct,attempts,timestamp
berg,1,structured,1,1,656.23,True,1,2025-05-14 17:45:00
berg,1,structured,2,3,566.58,True,1,2025-05-14 17:45:00
berg,1,structured,3,2,606.28,True,1,2025-05-14 17:45:01
berg,1,structured,4,1,307.62,True,1,2025-05-14 17:45:01
berg,1,structured,5,4,411.49,True,1,2025-05-14 17:45:02
berg,1,structured,6,2,427.82,True,1,2025-05-14 17:45:02
berg,1,structured,7,3,354.12,True,1,2025-05-14 17:45:03
berg,1,structured,8,4,349.56,True,1,2025-05-14 17:45:03
berg,1,structured,9,1,449.81,True,1,2025-05-14 17:45:04
berg,1,structured,10,2,273.65,True,1,2025-05-14 17:45:04
berg,1,structured,11,1,365.34,True,1,2025-05-14 17:45:05
berg,1,structured,12,3,292.42,True,1,2025-05-14 17:45:05
berg,1,structured,13,2,391.13,True,1,2025-05-14 17:45:06
berg,1,structured,14,1,262.89,True,1,2025-05-14 17:45:06
berg,1,structured,15,4,409.52,True,1,2025-05-14 17:45:06
berg,1,structured,16,2,345.78,True,1,2025-05-14 17:45:07
berg,1,structured,17,3,424.23,True,1,2025-05-14 17:45:07
berg,1,structured,18,4,291.95,True,1,2025-05-14 17:45:08
berg,1,structured,19,1,426.8,True,1,2025-05-14 17:45:08
berg,1,structured,20,2,342.0,True,2,2025-05-14 17:45:09
berg,1,structured,21,1,426.06,True,1,2025-05-14 17:45:10
berg,1,structured,22,3,488.51,True,1,2025-05-14 17:45:10
berg,1,structured,23,2,381.0,True,1,2025-05-14 17:45:11
berg,1,structured,24,1,285.02,True,1,2025-05-14 17:45:11
berg,1,structured,25,4,355.79,True,1,2025-05-14 17:45:12
berg,1,structured,26,2,249.71,True,1,2025-05-14 17:45:12
berg,1,structured,27,3,332.9,True,1,2025-05-14 17:45:12
berg,1,structured,28,4,327.11,True,1,2025-05-14 17:45:13
berg,1,structured,29,1,377.26,True,1,2025-05-14 17:45:13
berg,1,structured,30,2,253.45,True,1,2025-05-14 17:45:14
berg,1,structured,31,1,462.31,True,1,2025-05-14 17:45:14
berg,1,structured,32,3,374.61,True,1,2025-05-14 17:45:15
berg,1,structured,33,2,310.26,True,1,2025-05-14 17:45:15
berg,1,structured,34,1,284.91,True,2,2025-05-14 17:45:16
berg,1,structured,35,4,400.98,True,1,2025-05-14 17:45:16
berg,1,structured,36,2,306.32,True,1,2025-05-14 17:45:17
berg,1,structured,37,3,266.64,True,1,2025-05-14 17:45:17
berg,1,structured,38,4,355.35,True,1,2025-05-14 17:45:18
berg,1,structured,39,1,249.67,True,1,2025-05-14 17:45:18
berg,1,structured,40,2,233.65,True,1,2025-05-14 17:45:18
berg,1,structured,41,1,464.56,True,1,2025-05-14 17:45:19
berg,1,structured,42,3,343.9,True,1,2025-05-14 17:45:19
berg,1,structured,43,2,433.45,True,1,2025-05-14 17:45:20
berg,1,structured,44,1,272.46,True,1,2025-05-14 17:45:20
berg,1,structured,45,4,294.72,True,1,2025-05-14 17:45:21
berg,1,structured,46,2,289.84,True,1,2025-05-14 17:45:21
berg,1,structured,47,3,317.95,True,1,2025-05-14 17:45:21
berg,1,structured,48,4,315.43,True,1,2025-05-14 17:45:22
berg,1,structured,49,1,231.06,True,1,2025-05-14 17:45:22
berg,1,structured,50,2,269.37,True,1,2025-05-14 17:45:23
berg,1,structured,51,1,336.85,True,1,2025-05-14 17:45:23
berg,1,structured,52,3,357.95,True,1,2025-05-14 17:45:23
berg,1,structured,53,2,339.9,True,1,2025-05-14 17:45:24
berg,1,structured,54,1,297.59,True,1,2025-05-14 17:45:24
berg,1,structured,55,4,272.36,True,1,2025-05-14 17:45:25
berg,1,structured,56,2,235.44,True,1,2025-05-14 17:45:25
berg,1,structured,57,3,281.76,True,1,2025-05-14 17:45:25
berg,1,structured,58,4,346.93,True,1,2025-05-14 17:45:26
berg,1,structured,59,1,241.82,True,1,2025-05-14 17:45:26
berg,1,structured,60,2,243.7,True,1,2025-05-14 17:45:27
berg,2,random,1,1,624.01,True,1,2025-05-14 17:45:28
berg,2,random,2,3,146.01,True,2,2025-05-14 17:45:29
berg,2,random,3,2,366.52,True,1,2025-05-14 17:45:30
berg,2,random,4,4,319.48,True,1,2025-05-14 17:45:30
berg,2,random,5,3,798.82,True,1,2025-05-14 17:45:31
berg,2,random,6,2,324.33,True,1,2025-05-14 17:45:31
berg,2,random,7,4,221.84,True,2,2025-05-14 17:45:32
berg,2,random,8,3,509.01,True,1,2025-05-14 17:45:33
berg,2,random,9,2,407.0,True,1,2025-05-14 17:45:33
berg,2,random,10,1,261.28,True,1,2025-05-14 17:45:34
berg,2,random,11,2,426.02,True,1,2025-05-14 17:45:34
berg,2,random,12,4,336.41,True,1,2025-05-14 17:45:34
berg,2,random,13,3,291.22,True,1,2025-05-14 17:45:35
berg,2,random,14,4,426.6,True,1,2025-05-14 17:45:35
berg,2,random,15,1,443.73,True,2,2025-05-14 17:45:36
berg,2,random,16,3,278.14,True,2,2025-05-14 17:45:37
berg,2,random,17,4,565.15,True,1,2025-05-14 17:45:38
berg,2,random,18,2,485.43,True,1,2025-05-14 17:45:38
berg,2,random,19,4,409.96,True,1,2025-05-14 17:45:39
berg,2,random,20,3,450.95,True,1,2025-05-14 17:45:39
berg,2,random,21,2,395.97,True,1,2025-05-14 17:45:40
berg,2,random,22,4,372.4,True,1,2025-05-14 17:45:40
berg,2,random,23,3,465.97,True,1,2025-05-14 17:45:41
berg,2,random,24,1,452.59,True,1,2025-05-14 17:45:42
berg,2,random,25,2,264.74,True,1,2025-05-14 17:45:42
berg,2,random,26,4,419.17,True,1,2025-05-14 17:45:42
berg,2,random,27,2,308.66,True,1,2025-05-14 17:45:43
berg,2,random,28,3,338.65,True,1,2025-05-14 17:45:43
berg,2,random,29,1,428.86,True,1,2025-05-14 17:45:44
berg,2,random,30,3,407.49,True,1,2025-05-14 17:45:44
berg,2,random,31,1,280.16,True,2,2025-05-14 17:45:45
berg,2,random,32,4,459.35,True,1,2025-05-14 17:45:46
berg,2,random,33,2,288.83,True,1,2025-05-14 17:45:46
berg,2,random,34,1,407.1,True,1,2025-05-14 17:45:47
berg,2,random,35,2,425.63,True,1,2025-05-14 17:45:47
berg,2,random,36,3,391.05,True,1,2025-05-14 17:45:48
berg,2,random,37,1,474.02,True,1,2025-05-14 17:45:48
berg,2,random,38,2,324.38,True,1,2025-05-14 17:45:49
berg,2,random,39,4,387.03,True,1,2025-05-14 17:45:49
berg,2,random,40,3,530.18,True,1,2025-05-14 17:45:50
berg,2,random,41,2,330.85,True,1,2025-05-14 17:45:50
berg,2,random,42,3,627.37,True,1,2025-05-14 17:45:51
berg,2,random,43,4,374.3,True,1,2025-05-14 17:45:51
berg,2,random,44,1,370.05,True,1,2025-05-14 17:45:52
berg,2,random,45,2,290.11,True,1,2025-05-14 17:45:52
berg,2,random,46,1,346.12,True,1,2025-05-14 17:45:53
berg,2,random,47,4,703.09,True,1,2025-05-14 17:45:54
berg,2,random,48,1,358.01,True,1,2025-05-14 17:45:54
berg,2,random,49,4,377.34,True,1,2025-05-14 17:45:54
berg,2,random,50,3,388.15,True,1,2025-05-14 17:45:55
berg,2,random,51,1,263.22,True,2,2025-05-14 17:45:56
berg,2,random,52,4,578.1,True,1,2025-05-14 17:45:56
berg,2,random,53,3,350.11,True,1,2025-05-14 17:45:57
berg,2,random,54,1,463.1,True,1,2025-05-14 17:45:57
berg,2,random,55,2,359.26,True,1,2025-05-14 17:45:58
berg,2,random,56,4,417.64,True,1,2025-05-14 17:45:58
berg,2,random,57,3,437.27,True,1,2025-05-14 17:45:59
berg,2,random,58,1,457.94,True,1,2025-05-14 17:45:59
berg,2,random,59,2,333.54,True,1,2025-05-14 17:46:00
berg,2,random,60,3,497.09,True,1,2025-05-14 17:46:01
berg,3,structured,1,1,532.51,True,1,2025-05-14 17:46:02
berg,3,structured,2,3,329.4,True,2,2025-05-14 17:46:03
berg,3,structured,3,2,622.59,True,1,2025-05-14 17:46:03
berg,3,structured,4,1,346.66,True,1,2025-05-14 17:46:04
berg,3,structured,5,4,524.79,True,1,2025-05-14 17:46:05
berg,3,structured,6,2,534.23,True,1,2025-05-14 17:46:05
berg,3,structured,7,3,411.33,True,1,2025-05-14 17:46:06
berg,3,structured,8,4,324.61,True,1,2025-05-14 17:46:06
berg,3,structured,9,1,382.78,True,1,2025-05-14 17:46:07
berg,3,structured,10,2,259.8,True,1,2025-05-14 17:46:07
berg,3,structured,11,1,387.71,True,1,2025-05-14 17:46:07
berg,3,structured,12,3,427.16,True,1,2025-05-14 17:46:08
berg,3,structured,13,2,430.71,True,1,2025-05-14 17:46:08
berg,3,structured,14,1,342.61,True,1,2025-05-14 17:46:09
berg,3,structured,15,4,300.28,True,1,2025-05-14 17:46:09
berg,3,structured,16,2,289.44,True,1,2025-05-14 17:46:10
berg,3,structured,17,3,299.98,True,1,2025-05-14 17:46:10
berg,3,structured,18,4,346.38,True,1,2025-05-14 17:46:11
berg,3,structured,19,1,300.53,True,1,2025-05-14 17:46:11
berg,3,structured,20,2,253.76,True,1,2025-05-14 17:46:11
berg,3,structured,21,1,492.33,True,1,2025-05-14 17:46:12
berg,3,structured,22,3,325.03,True,1,2025-05-14 17:46:12
berg,3,structured,23,2,400.79,True,1,2025-05-14 17:46:13
berg,3,structured,24,1,585.95,True,1,2025-05-14 17:46:14
berg,3,structured,25,4,319.88,True,1,2025-05-14 17:46:14
berg,3,structured,26,2,285.37,True,1,2025-05-14 17:46:14
berg,3,structured,27,3,327.08,True,1,2025-05-14 17:46:15
berg,3,structured,28,4,369.53,True,1,2025-05-14 17:46:15
berg,3,structured,29,1,420.04,True,1,2025-05-14 17:46:16
berg,3,structured,30,2,237.53,True,1,2025-05-14 17:46:16
berg,3,structured,31,1,358.75,True,1,2025-05-14 17:46:17
berg,3,structured,32,3,327.88,True,1,2025-05-14 17:46:17
berg,3,structured,33,2,351.91,True,1,2025-05-14 17:46:17
berg,3,structured,34,1,331.77,True,1,2025-05-14 17:46:18
berg,3,structured,35,4,319.77,True,1,2025-05-14 17:46:18
berg,3,structured,36,2,307.55,True,1,2025-05-14 17:46:19
berg,3,structured,37,3,481.68,True,1,2025-05-14 17:46:19
berg,3,structured,38,4,483.3,True,1,2025-05-14 17:46:20
berg,3,structured,39,1,256.45,True,1,2025-05-14 17:46:20
berg,3,structured,40,2,351.32,True,1,2025-05-14 17:46:21
berg,3,structured,41,1,387.06,True,1,2025-05-14 17:46:21
berg,3,structured,42,3,363.36,True,1,2025-05-14 17:46:22
berg,3,structured,43,2,270.67,True,1,2025-05-14 17:46:22
berg,3,structured,44,1,384.43,True,1,2025-05-14 17:46:22
berg,3,structured,45,4,293.35,True,1,2025-05-14 17:46:23
berg,3,structured,46,2,340.24,True,1,2025-05-14 17:46:23
berg,3,structured,47,3,336.46,True,1,2025-05-14 17:46:24
berg,3,structured,48,4,368.15,True,1,2025-05-14 17:46:24
berg,3,structured,49,1,524.2,True,1,2025-05-14 17:46:25
berg,3,structured,50,2,239.29,True,1,2025-05-14 17:46:25
berg,3,structured,51,1,321.54,True,2,2025-05-14 17:46:26
berg,3,structured,52,3,448.69,True,1,2025-05-14 17:46:26
berg,3,structured,53,2,342.14,True,1,2025-05-14 17:46:27
berg,3,structured,54,1,361.28,True,1,2025-05-14 17:46:27
berg,3,structured,55,4,293.51,True,1,2025-05-14 17:46:28
berg,3,structured,56,2,329.93,True,1,2025-05-14 17:46:28
berg,3,structured,57,3,322.83,True,1,2025-05-14 17:46:29
berg,3,structured,58,4,419.69,True,1,2025-05-14 17:46:29
berg,3,structured,59,1,316.12,True,1,2025-05-14 17:46:30
berg,3,structured,60,2,277.0,True,1,2025-05-14 17:46:30
berg,4,random,1,2,570.57,True,1,2025-05-14 17:46:31
berg,4,random,2,1,310.62,True,1,2025-05-14 17:46:32
berg,4,random,3,4,279.77,True,1,2025-05-14 17:46:32
berg,4,random,4,3,385.27,True,1,2025-05-14 17:46:33
berg,4,random,5,2,409.03,True,1,2025-05-14 17:46:33
berg,4,random,6,4,355.87,True,1,2025-05-14 17:46:33
berg,4,random,7,1,387.62,True,1,2025-05-14 17:46:34
berg,4,random,8,4,512.24,True,1,2025-05-14 17:46:35
berg,4,random,9,3,361.53,True,1,2025-05-14 17:46:35
berg,4,random,10,4,417.58,True,1,2025-05-14 17:46:36
berg,4,random,11,1,364.42,True,1,2025-05-14 17:46:36
berg,4,random,12,3,434.46,True,1,2025-05-14 17:46:37
berg,4,random,13,1,229.84,True,2,2025-05-14 17:46:37
berg,4,random,14,3,494.05,True,1,2025-05-14 17:46:38
berg,4,random,15,1,370.18,True,1,2025-05-14 17:46:38
berg,4,random,16,2,406.27,True,1,2025-05-14 17:46:39
berg,4,random,17,1,328.12,True,1,2025-05-14 17:46:39
berg,4,random,18,4,459.95,True,1,2025-05-14 17:46:40
berg,4,random,19,2,352.53,True,1,2025-05-14 17:46:40
berg,4,random,20,1,214.91,True,1,2025-05-14 17:46:41
berg,4,random,21,4,416.8,True,1,2025-05-14 17:46:41
berg,4,random,22,2,393.56,True,1,2025-05-14 17:46:42
berg,4,random,23,4,490.08,True,1,2025-05-14 17:46:42
berg,4,random,24,2,461.7,True,1,2025-05-14 17:46:43
berg,4,random,25,3,525.6,True,1,2025-05-14 17:46:43
berg,4,random,26,4,614.78,True,1,2025-05-14 17:46:44
berg,4,random,27,3,618.36,True,1,2025-05-14 17:46:45
berg,4,random,28,4,469.96,True,1,2025-05-14 17:46:45
berg,4,random,29,1,370.39,True,1,2025-05-14 17:46:46
berg,4,random,30,3,385.45,True,1,2025-05-14 17:46:46
berg,4,random,31,4,272.42,True,2,2025-05-14 17:46:47
berg,4,random,32,1,447.28,True,1,2025-05-14 17:46:48
berg,4,random,33,3,379.7,True,1,2025-05-14 17:46:48
berg,4,random,34,1,616.53,True,1,2025-05-14 17:46:49
berg,4,random,35,3,469.28,True,1,2025-05-14 17:46:49
berg,4,random,36,4,530.06,True,1,2025-05-14 17:46:50
berg,4,random,37,3,613.78,True,1,2025-05-14 17:46:51
berg,4,random,38,2,595.58,True,1,2025-05-14 17:46:51
berg,4,random,39,3,381.79,True,1,2025-05-14 17:46:52
berg,4,random,40,2,716.55,True,1,2025-05-14 17:46:53
berg,4,random,41,3,455.45,True,1,2025-05-14 17:46:53
berg,4,random,42,1,406.61,True,1,2025-05-14 17:46:54
berg,4,random,43,3,284.56,True,2,2025-05-14 17:46:55
berg,4,random,44,4,440.37,True,1,2025-05-14 17:46:55
berg,4,random,45,3,428.16,True,1,2025-05-14 17:46:56
berg,4,random,46,2,451.89,True,1,2025-05-14 17:46:56
berg,4,random,47,4,401.9,True,1,2025-05-14 17:46:57
berg,4,random,48,3,330.25,True,1,2025-05-14 17:46:57
berg,4,random,49,4,370.77,True,1,2025-05-14 17:46:58
berg,4,random,50,3,415.25,True,1,2025-05-14 17:46:58
berg,4,random,51,1,383.49,True,1,2025-05-14 17:46:59
berg,4,random,52,4,446.07,True,1,2025-05-14 17:46:59
berg,4,random,53,2,399.37,True,1,2025-05-14 17:47:00
berg,4,random,54,1,333.91,True,1,2025-05-14 17:47:00
berg,4,random,55,3,291.56,True,1,2025-05-14 17:47:00
berg,4,random,56,1,308.58,True,2,2025-05-14 17:47:01
berg,4,random,57,2,466.22,True,1,2025-05-14 17:47:02
berg,4,random,58,4,470.86,True,1,2025-05-14 17:47:02
berg,4,random,59,3,352.95,True,1,2025-05-14 17:47:03
berg,4,random,60,2,541.36,True,1,2025-05-14 17:47:03
berg,5,structured,1,1,504.89,True,1,2025-05-14 17:47:05
berg,5,structured,2,3,146.6,True,2,2025-05-14 17:47:09
berg,5,structured,3,2,950.67,True,1,2025-05-14 17:47:10
berg,5,structured,4,1,299.65,True,1,2025-05-14 17:47:11
berg,5,structured,5,4,338.38,True,1,2025-05-14 17:47:11
berg,5,structured,6,2,406.06,True,1,2025-05-14 17:47:11
berg,5,structured,7,3,300.07,True,1,2025-05-14 17:47:12
berg,5,structured,8,4,355.13,True,1,2025-05-14 17:47:12
berg,5,structured,9,1,428.59,True,1,2025-05-14 17:47:13
berg,5,structured,10,2,293.67,True,1,2025-05-14 17:47:13
berg,5,structured,11,1,330.78,True,1,2025-05-14 17:47:14
berg,5,structured,12,3,322.41,True,1,2025-05-14 17:47:14
berg,5,structured,13,2,319.08,True,1,2025-05-14 17:47:15
berg,5,structured,14,1,315.97,True,1,2025-05-14 17:47:15
berg,5,structured,15,4,546.69,True,1,2025-05-14 17:47:16
berg,5,structured,16,2,328.49,True,1,2025-05-14 17:47:16
berg,5,structured,17,3,418.23,True,1,2025-05-14 17:47:17
berg,5,structured,18,4,379.97,True,1,2025-05-14 17:47:17
berg,5,structured,19,1,330.81,True,1,2025-05-14 17:47:17
berg,5,structured,20,2,302.92,True,1,2025-05-14 17:47:18
berg,5,structured,21,1,410.73,True,1,2025-05-14 17:47:18
berg,5,structured,22,3,295.49,True,1,2025-05-14 17:47:19
berg,5,structured,23,2,368.92,True,1,2025-05-14 17:47:19
berg,5,structured,24,1,540.93,True,1,2025-05-14 17:47:20
berg,5,structured,25,4,310.91,True,1,2025-05-14 17:47:20
berg,5,structured,26,2,325.62,True,1,2025-05-14 17:47:21
berg,5,structured,27,3,303.91,True,1,2025-05-14 17:47:21
berg,5,structured,28,4,370.13,True,1,2025-05-14 17:47:22
berg,5,structured,29,1,294.98,True,1,2025-05-14 17:47:22
berg,5,structured,30,2,353.18,True,1,2025-05-14 17:47:22
berg,5,structured,31,1,501.29,True,1,2025-05-14 17:47:23
berg,5,structured,32,3,431.03,True,1,2025-05-14 17:47:24
berg,5,structured,33,2,334.18,True,1,2025-05-14 17:47:24
berg,5,structured,34,1,330.28,True,1,2025-05-14 17:47:24
berg,5,structured,35,4,403.92,True,1,2025-05-14 17:47:25
berg,5,structured,36,2,305.24,True,1,2025-05-14 17:47:25
berg,5,structured,37,3,293.19,True,1,2025-05-14 17:47:26
berg,5,structured,38,4,339.55,True,1,2025-05-14 17:47:26
berg,5,structured,39,1,373.53,True,1,2025-05-14 17:47:27
berg,5,structured,40,2,278.42,True,1,2025-05-14 17:47:27
berg,5,structured,41,1,383.54,True,1,2025-05-14 17:47:27
berg,5,structured,42,3,319.19,True,1,2025-05-14 17:47:28
berg,5,structured,43,2,366.3,True,1,2025-05-14 17:47:28
berg,5,structured,44,1,580.92,True,1,2025-05-14 17:47:29
berg,5,structured,45,4,308.04,True,1,2025-05-14 17:47:29
berg,5,structured,46,2,280.07,True,1,2025-05-14 17:47:30
berg,5,structured,47,3,326.24,True,1,2025-05-14 17:47:30
berg,5,structured,48,4,349.76,True,1,2025-05-14 17:47:31
berg,5,structured,49,1,397.53,True,1,2025-05-14 17:47:31
berg,5,structured,50,2,264.27,True,1,2025-05-14 17:47:32
berg,5,structured,51,1,332.97,True,1,2025-05-14 17:47:32
berg,5,structured,52,3,345.27,True,1,2025-05-14 17:47:32
berg,5,structured,53,2,330.11,True,1,2025-05-14 17:47:33
berg,5,structured,54,1,324.38,True,1,2025-05-14 17:47:33
berg,5,structured,55,4,339.59,True,1,2025-05-14 17:47:34
berg,5,structured,56,2,272.38,True,1,2025-05-14 17:47:34
berg,5,structured,57,3,274.71,True,1,2025-05-14 17:47:35
berg,5,structured,58,4,382.15,True,1,2025-05-14 17:47:35
berg,5,structured,59,1,338.52,True,1,2025-05-14 17:47:35
berg,5,structured,60,2,270.46,True,1,2025-05-14 17:47:36
berg,6,random,1,2,632.3,True,1,2025-05-14 17:47:37
berg,6,random,2,1,292.05,True,1,2025-05-14 17:47:38
berg,6,random,3,2,434.91,True,1,2025-05-14 17:47:38
berg,6,random,4,3,469.88,True,1,2025-05-14 17:47:39
berg,6,random,5,4,329.04,True,1,2025-05-14 17:47:39
berg,6,random,6,1,428.63,True,1,2025-05-14 17:47:40
berg,6,random,7,2,211.57,True,1,2025-05-14 17:47:40
berg,6,random,8,3,261.13,True,1,2025-05-14 17:47:40
berg,6,random,9,1,444.6,True,1,2025-05-14 17:47:41
berg,6,random,10,2,312.32,True,1,2025-05-14 17:47:41
berg,6,random,11,4,259.45,True,2,2025-05-14 17:47:42
berg,6,random,12,2,264.56,True,2,2025-05-14 17:47:43
berg,6,random,13,3,424.42,True,1,2025-05-14 17:47:43
berg,6,random,14,2,274.87,True,1,2025-05-14 17:47:44
berg,6,random,15,3,471.62,True,1,2025-05-14 17:47:44
berg,6,random,16,2,315.75,True,1,2025-05-14 17:47:45
berg,6,random,17,3,429.52,True,1,2025-05-14 17:47:45
berg,6,random,18,2,378.99,True,1,2025-05-14 17:47:46
berg,6,random,19,3,345.66,True,1,2025-05-14 17:47:46
berg,6,random,20,1,474.0,True,1,2025-05-14 17:47:47
berg,6,random,21,4,332.02,True,2,2025-05-14 17:47:48
berg,6,random,22,2,363.34,True,1,2025-05-14 17:47:48
berg,6,random,23,1,350.25,True,1,2025-05-14 17:47:49
berg,6,random,24,2,400.63,True,1,2025-05-14 17:47:49
berg,6,random,25,1,336.42,True,1,2025-05-14 17:47:49
berg,6,random,26,2,375.93,True,1,2025-05-14 17:47:50
berg,6,random,27,4,547.62,True,1,2025-05-14 17:47:51
berg,6,random,28,2,264.77,True,1,2025-05-14 17:47:51
berg,6,random,29,1,279.46,True,1,2025-05-14 17:47:51
berg,6,random,30,3,367.18,True,1,2025-05-14 17:47:52
berg,6,random,31,4,373.58,True,1,2025-05-14 17:47:52
berg,6,random,32,2,332.75,True,1,2025-05-14 17:47:53
berg,6,random,33,3,491.95,True,1,2025-05-14 17:47:53
berg,6,random,34,2,386.15,True,1,2025-05-14 17:47:54
berg,6,random,35,4,505.84,True,1,2025-05-14 17:47:54
berg,6,random,36,3,590.33,True,1,2025-05-14 17:47:55
berg,6,random,37,1,464.76,True,1,2025-05-14 17:47:56
berg,6,random,38,3,258.49,True,2,2025-05-14 17:47:56
berg,6,random,39,1,455.44,True,1,2025-05-14 17:47:57
berg,6,random,40,3,336.45,True,1,2025-05-14 17:47:57
berg,6,random,41,1,464.17,True,1,2025-05-14 17:47:58
berg,6,random,42,4,405.22,True,1,2025-05-14 17:47:58
berg,6,random,43,3,362.66,True,1,2025-05-14 17:47:59
berg,6,random,44,2,358.52,True,1,2025-05-14 17:47:59
berg,6,random,45,3,475.75,True,1,2025-05-14 17:48:00
berg,6,random,46,1,436.73,True,1,2025-05-14 17:48:00
berg,6,random,47,2,377.17,True,1,2025-05-14 17:48:01
berg,6,random,48,4,341.61,True,1,2025-05-14 17:48:01
berg,6,random,49,1,439.67,True,1,2025-05-14 17:48:02
berg,6,random,50,2,287.92,True,2,2025-05-14 17:48:03
berg,6,random,51,3,332.15,True,1,2025-05-14 17:48:03
berg,6,random,52,4,306.53,True,1,2025-05-14 17:48:04
berg,6,random,53,2,471.84,True,1,2025-05-14 17:48:04
berg,6,random,54,4,406.06,True,1,2025-05-14 17:48:05
berg,6,random,55,2,542.14,True,1,2025-05-14 17:48:05
berg,6,random,56,1,312.1,True,1,2025-05-14 17:48:06
berg,6,random,57,3,316.73,True,1,2025-05-14 17:48:06
berg,6,random,58,4,337.38,True,1,2025-05-14 17:48:07
berg,6,random,59,1,519.18,True,1,2025-05-14 17:48:07
berg,6,random,60,4,567.0,True,1,2025-05-14 17:48:08
berg,7,structured,1,1,477.34,True,1,2025-05-14 17:48:09
berg,7,structured,2,3,384.22,True,1,2025-05-14 17:48:10
berg,7,structured,3,2,304.52,True,1,2025-05-14 17:48:10
berg,7,structured,4,1,440.93,True,1,2025-05-14 17:48:11
berg,7,structured,5,4,283.73,True,1,2025-05-14 17:48:11
berg,7,structured,6,2,351.13,True,1,2025-05-14 17:48:11
berg,7,structured,7,3,366.92,True,1,2025-05-14 17:48:12
berg,7,structured,8,4,427.96,True,1,2025-05-14 17:48:12
berg,7,structured,9,1,466.3,True,1,2025-05-14 17:48:13
berg,7,structured,10,2,309.6,True,1,2025-05-14 17:48:13
berg,7,structured,11,1,332.17,True,1,2025-05-14 17:48:14
berg,7,structured,12,3,383.93,True,1,2025-05-14 17:48:14
berg,7,structured,13,2,325.11,True,1,2025-05-14 17:48:15
berg,7,structured,14,1,349.64,True,1,2025-05-14 17:48:15
berg,7,structured,15,4,338.52,True,1,2025-05-14 17:48:16
berg,7,structured,16,2,379.45,True,1,2025-05-14 17:48:16
berg,7,structured,17,3,462.0,True,1,2025-05-14 17:48:17
berg,7,structured,18,4,439.43,True,1,2025-05-14 17:48:17
berg,7,structured,19,1,562.7,True,1,2025-05-14 17:48:18
berg,7,structured,20,2,370.61,True,1,2025-05-14 17:48:18
berg,7,structured,21,1,354.89,True,1,2025-05-14 17:48:19
berg,7,structured,22,3,448.06,True,1,2025-05-14 17:48:19
berg,7,structured,23,2,301.31,True,1,2025-05-14 17:48:20
berg,7,structured,24,1,294.64,True,1,2025-05-14 17:48:20
berg,7,structured,25,4,326.5,True,1,2025-05-14 17:48:21
berg,7,structured,26,2,424.88,True,1,2025-05-14 17:48:21
berg,7,structured,27,3,387.38,True,1,2025-05-14 17:48:22
berg,7,structured,28,4,410.77,True,1,2025-05-14 17:48:22
berg,7,structured,29,1,374.12,True,1,2025-05-14 17:48:23
berg,7,structured,30,2,401.06,True,1,2025-05-14 17:48:23
berg,7,structured,31,1,406.87,True,1,2025-05-14 17:48:24
berg,7,structured,32,3,307.31,True,1,2025-05-14 17:48:24
berg,7,structured,33,2,408.26,True,1,2025-05-14 17:48:25
berg,7,structured,34,1,322.71,True,1,2025-05-14 17:48:25
berg,7,structured,35,4,316.8,True,1,2025-05-14 17:48:25
berg,7,structured,36,2,266.8,True,1,2025-05-14 17:48:26
berg,7,structured,37,3,354.18,True,1,2025-05-14 17:48:26
berg,7,structured,38,4,484.14,True,1,2025-05-14 17:48:27
berg,7,structured,39,1,436.3,True,1,2025-05-14 17:48:27
berg,7,structured,40,2,334.01,True,1,2025-05-14 17:48:28
berg,7,structured,41,1,576.23,True,1,2025-05-14 17:48:28
berg,7,structured,42,3,298.92,True,1,2025-05-14 17:48:29
berg,7,structured,43,2,520.07,True,1,2025-05-14 17:48:29
berg,7,structured,44,1,280.12,True,2,2025-05-14 17:48:30
berg,7,structured,45,4,370.72,True,1,2025-05-14 17:48:31
berg,7,structured,46,2,594.06,True,1,2025-05-14 17:48:31
berg,7,structured,47,3,411.69,True,1,2025-05-14 17:48:32
berg,7,structured,48,4,378.93,True,1,2025-05-14 17:48:32
berg,7,structured,49,1,318.39,True,1,2025-05-14 17:48:33
berg,7,structured,50,2,231.67,True,1,2025-05-14 17:48:33
berg,7,structured,51,1,379.47,True,1,2025-05-14 17:48:34
berg,7,structured,52,3,316.18,True,1,2025-05-14 17:48:34
berg,7,structured,53,2,425.63,True,1,2025-05-14 17:48:35
berg,7,structured,54,1,348.29,True,1,2025-05-14 17:48:35
berg,7,structured,55,4,296.71,True,1,2025-05-14 17:48:35
berg,7,structured,56,2,303.76,True,1,2025-05-14 17:48:36
berg,7,structured,57,3,251.82,True,1,2025-05-14 17:48:36
berg,7,structured,58,4,345.04,True,1,2025-05-14 17:48:37
berg,7,structured,59,1,410.2,True,1,2025-05-14 17:48:37
berg,7,structured,60,2,338.2,True,1,2025-05-14 17:48:38
berg,8,random,1,3,959.52,True,1,2025-05-14 17:48:39
berg,8,random,2,2,359.8,True,1,2025-05-14 17:48:40
berg,8,random,3,3,367.19,True,2,2025-05-14 17:48:40
berg,8,random,4,4,375.91,True,1,2025-05-14 17:48:41
berg,8,random,5,3,292.75,True,2,2025-05-14 17:48:42
berg,8,random,6,2,502.84,True,1,2025-05-14 17:48:42
berg,8,random,7,3,247.12,True,2,2025-05-14 17:48:43
berg,8,random,8,2,489.53,True,1,2025-05-14 17:48:44
berg,8,random,9,1,280.72,True,1,2025-05-14 17:48:44
berg,8,random,10,4,315.96,True,1,2025-05-14 17:48:44
berg,8,random,11,2,252.84,True,2,2025-05-14 17:48:45
berg,8,random,12,4,503.3,True,1,2025-05-14 17:48:46
berg,8,random,13,3,422.96,True,1,2025-05-14 17:48:46
berg,8,random,14,2,265.99,True,1,2025-05-14 17:48:47
berg,8,random,15,4,382.57,True,1,2025-05-14 17:48:47
berg,8,random,16,1,455.92,True,1,2025-05-14 17:48:48
berg,8,random,17,4,293.27,True,2,2025-05-14 17:48:48
berg,8,random,18,3,429.08,True,1,2025-05-14 17:48:49
berg,8,random,19,1,289.67,True,2,2025-05-14 17:48:50
berg,8,random,20,3,450.04,True,1,2025-05-14 17:48:50
berg,8,random,21,2,372.31,True,1,2025-05-14 17:48:51
berg,8,random,22,4,294.48,True,1,2025-05-14 17:48:51
berg,8,random,23,1,396.85,True,1,2025-05-14 17:48:51
berg,8,random,24,2,369.08,True,1,2025-05-14 17:48:52
berg,8,random,25,3,253.25,True,1,2025-05-14 17:48:52
berg,8,random,26,1,473.72,True,2,2025-05-14 17:48:53
berg,8,random,27,2,426.7,True,1,2025-05-14 17:48:54
berg,8,random,28,4,379.77,True,1,2025-05-14 17:48:54
berg,8,random,29,3,431.96,True,1,2025-05-14 17:48:55
berg,8,random,30,2,551.2,True,1,2025-05-14 17:48:56
berg,8,random,31,3,518.5,True,1,2025-05-14 17:48:56
berg,8,random,32,1,476.51,True,1,2025-05-14 17:48:57
berg,8,random,33,2,344.4,True,1,2025-05-14 17:48:57
berg,8,random,34,3,278.49,True,1,2025-05-14 17:48:58
berg,8,random,35,2,431.93,True,1,2025-05-14 17:48:58
berg,8,random,36,4,358.73,True,1,2025-05-14 17:48:59
berg,8,random,37,3,290.63,True,2,2025-05-14 17:48:59
berg,8,random,38,1,431.79,True,1,2025-05-14 17:49:00
berg,8,random,39,2,277.18,True,1,2025-05-14 17:49:00
berg,8,random,40,1,435.31,True,1,2025-05-14 17:49:01
berg,8,random,41,4,303.09,True,2,2025-05-14 17:49:02
berg,8,random,42,3,314.02,True,1,2025-05-14 17:49:02
berg,8,random,43,1,524.54,True,1,2025-05-14 17:49:03
berg,8,random,44,4,295.71,True,2,2025-05-14 17:49:04
berg,8,random,45,2,344.61,True,1,2025-05-14 17:49:04
berg,8,random,46,3,282.73,True,1,2025-05-14 17:49:04
berg,8,random,47,2,498.83,True,1,2025-05-14 17:49:05
berg,8,random,48,3,494.03,True,1,2025-05-14 17:49:06
berg,8,random,49,2,456.27,True,1,2025-05-14 17:49:06
berg,8,random,50,1,502.34,True,1,2025-05-14 17:49:07
berg,8,random,51,2,445.73,True,1,2025-05-14 17:49:07
berg,8,random,52,4,517.64,True,1,2025-05-14 17:49:08
berg,8,random,53,2,289.87,True,1,2025-05-14 17:49:08
berg,8,random,54,3,332.36,True,1,2025-05-14 17:49:09
berg,8,random,55,2,515.0,True,1,2025-05-14 17:49:09
berg,8,random,56,3,517.51,True,1,2025-05-14 17:49:10
berg,8,random,57,4,432.04,True,1,2025-05-14 17:49:11
berg,8,random,58,1,371.47,True,1,2025-05-14 17:49:11
berg,8,random,59,2,348.67,True,1,2025-05-14 17:49:11
berg,8,random,60,3,308.39,True,1,2025-05-14 17:49:12
